{
  "resourceType": "Bundle",
  "id": "D5CEAEDA-F489-4198-BBCE-D19F01089C28",
  "identifier": {
    "system": "https://tools.ietf.org/html/rfc4122",
    "value": "02819383-A8EE-11EB-A9E2-F40343488B15"
  },
  "type": "searchset",
  "timestamp": "2021-04-29T13:22:56+00:00",
  "total": 5,
  "entry": [
    {
      "fullUrl": "https://int.api.service.nhs.uk/summary-care-record/FHIR/R4/Composition/D14FCE6B-2F2A-47FB-ABC8-DB382A117556",
      "resource": {
        "resourceType": "Composition",
        "id": "D14FCE6B-2F2A-47FB-ABC8-DB382A117556",
        "meta": {
          "lastUpdated": "2017-12-14T09:14:27+00:00"
        },
        "identifier": {
          "system": "https://tools.ietf.org/html/rfc4122",
          "value": "D14FCE6B-2F2A-47FB-ABC8-DB382A117556"
        },
        "status": "final",
        "type": {
          "coding": [
            {
              "system": "http://snomed.info/sct",
              "code": "196981000000101",
              "display": "General Practice Summary"
            }
          ]
        },
        "category": [
          {
            "coding": [
              {
                "system": "http://snomed.info/sct",
                "code": "163171000000105",
                "display": "Care Professional Documentation"
              }
            ]
          }
        ],
        "subject": {
          "reference": "Patient/B5CF03CD-B48F-4A62-B7A7-951697AD5684"
        },
        "date": "2017-12-14T09:14:27+00:00",
        "author": [
          {
            "reference": "PractitionerRole/D4905766-B447-4DDC-A57C-916901F2F9D3"
          }
        ],
        "relatesTo": [
          {
            "code": "replaces",
            "targetIdentifier": {
              "value": "0CC41991-446D-4D3B-9FA4-8F8F2B98D595"
            }
          }
        ],
        "section": [
          {
            "title": "General Practice Summary",
            "code": {
              "coding": [
                {
                  "code": "Title"
                }
              ]
            },
            "text": {
              "status": "generated",
              "div": "<div xmlns=\"http://www.w3.org/1999/xhtml\"><h3 id=\"Disclaimer\">Sourced from the patient's General Practice record. This summary may not include all the information pertinent to this patient.</h3><p id=\"CreateTime\">Summary Created: 13-Dec-2017 09:14</p><p id=\"Practice\">XXX DO NOT USE XXX NIC TEST PRACTICE 14, C/O Nhs Npfit,Test Data Manager, Princes Exchange, Princes Square, Leeds, West Yorkshire, LS1 4HY.</p></div>"
            }
          },
          {
            "title": "Allergies and Adverse Reactions",
            "code": {
              "coding": [
                {
                  "code": "AllergiesHeader"
                }
              ]
            },
            "text": {
              "status": "generated",
              "div": "<div xmlns=\"http://www.w3.org/1999/xhtml\"><table summary=\"This table includes information about this patient's allergies and adverse reactions.\" id=\"Allergies\"><thead><tr><th>Date</th><th>Description</th><th>Certainty</th><th>Severity</th><th>Supporting Information</th></tr></thead><tbody><tr class=\"oddRow\"><td>15-Jun-2010</td><td>Adverse reaction to erythromycin</td><td/><td/><td>Severe vomiting</td></tr></tbody></table></div>"
            }
          },
          {
            "title": "Acute Medications (For the 12 month period 13-Dec-2016 to 13-Dec-2017)",
            "code": {
              "coding": [
                {
                  "code": "AcuteMedsHeader"
                }
              ]
            },
            "text": {
              "status": "generated",
              "div": "<div xmlns=\"http://www.w3.org/1999/xhtml\"><table summary=\"This table includes information about this patient's acute medications.\" id=\"AcuteMeds\"><thead><tr><th>Type</th><th>Date</th><th>Medication Item</th><th>Dosage Instructions</th><th>Quantity</th></tr></thead><tbody><tr><td colspan=\"5\">No relevant information available for this category.</td></tr></tbody></table></div>"
            }
          },
          {
            "title": "Current Repeat Medications",
            "code": {
              "coding": [
                {
                  "code": "RepeatMedsHeader"
                }
              ]
            },
            "text": {
              "status": "generated",
              "div": "<div xmlns=\"http://www.w3.org/1999/xhtml\"><table summary=\"This table includes information about this patient's current repeat medications.\" id=\"RepeatMeds\"><thead><tr><th>Type</th><th>Date</th><th>Medication Item</th><th>Dosage Instructions</th><th>Quantity</th></tr></thead><tbody><tr class=\"oddRow\"><td>Repeat Medication</td><td>Last Issued: 12-Dec-2014</td><td>Bisoprolol 1.25mg tablets</td><td>One To Be Taken Each Day</td><td>28 tablet</td></tr><tr class=\"oddRow\"><td colspan=\"2\"/><td>Reason for Medication: Heart failure</td><td colspan=\"2\"/></tr><tr class=\"evenRow\"><td>Repeat Medication</td><td>Last Issued: 12-Dec-2014</td><td>Citalopram 20mg tablets</td><td>One To Be Taken Each Day</td><td>28 tablet</td></tr><tr class=\"evenRow\"><td colspan=\"2\"/><td>Reason for Medication: Anxiety with depression</td><td colspan=\"2\"/></tr><tr class=\"oddRow\"><td>Repeat Medication</td><td>Last Issued: 12-Dec-2014</td><td>Clopidogrel 75mg tablets</td><td>One To Be Taken Each Day</td><td>28 tablet</td></tr><tr class=\"oddRow\"><td colspan=\"2\"/><td>Reason for Medication: Heart failure</td><td colspan=\"2\"/></tr><tr class=\"evenRow\"><td>Repeat Medication</td><td>Last Issued: 12-Dec-2014</td><td>Colecalciferol 200unit / Calcium carbonate 1.25g chewable tablets</td><td>One To Be Taken Each Day</td><td>112 tablet</td></tr><tr class=\"oddRow\"><td>Repeat Medication</td><td>Last Issued: 12-Dec-2014</td><td>Digoxin 62.5microgram tablets</td><td>One To Be Taken Each Day</td><td>28 tablet</td></tr><tr class=\"oddRow\"><td colspan=\"2\"/><td>Reason for Medication: Atrial fibrillation</td><td colspan=\"2\"/></tr><tr class=\"evenRow\"><td>Repeat Dispense</td><td>Authorised: 12-Dec-2014</td><td>Hydrocortisone 1% / Clotrimazole 1% cream</td><td>Apply Evenly And Sparingly No More Than Twice Each Day</td><td>30 gram</td></tr><tr class=\"evenRow\"><td colspan=\"2\"/><td>Reason for Medication: The medication reason is not currently included in SCR</td><td colspan=\"2\"/></tr><tr class=\"evenRow\"><td colspan=\"2\"/><td>Number of repeats authorised: 6</td><td colspan=\"2\"/></tr><tr class=\"oddRow\"><td>Repeat Medication</td><td>Last Issued: 04-Dec-2014</td><td>Latanoprost 50micrograms/ml eye drops</td><td>One Drop To Be Used At Night In The Affected Eye(s)</td><td>2.5 ml</td></tr><tr class=\"evenRow\"><td>Repeat Medication</td><td>Last Issued: 30-Sep-2014</td><td>Aymes Shake powder (Flavour Not Specified)</td><td>one to be taken daily between meals</td><td>1596 gram</td></tr><tr class=\"oddRow\"><td>Repeat Medication</td><td>Last Issued: 30-Sep-2014</td><td>CareSens N testing strips (Spirit Healthcare Ltd)</td><td>Use as directed</td><td>50 strip</td></tr><tr class=\"oddRow\"><td colspan=\"2\"/><td>Reason for Medication: Type II diabetes mellitus</td><td colspan=\"2\"/></tr><tr class=\"evenRow\"><td>Repeat Medication</td><td>Last Issued: 02-Jul-2014</td><td>Zerobase 11% cream (Thornton &amp; Ross Ltd)</td><td>Apply To Dry Skin Areas Two Or Three Times Daily And Rub In Well</td><td>500 gram</td></tr></tbody></table></div>"
            }
          },
          {
            "title": "Discontinued Repeat Medications (For the 6 month period 13-Jun-2017 to 13-Dec-2017)",
            "code": {
              "coding": [
                {
                  "code": "DiscRepeatMedsHeader"
                }
              ]
            },
            "text": {
              "status": "generated",
              "div": "<div xmlns=\"http://www.w3.org/1999/xhtml\"><table summary=\"This table includes information about this patient's discontinued repeat medications.\" id=\"DiscRepeatMeds\"><thead><tr><th>Type</th><th>Date</th><th>Medication Item</th><th>Dosage Instructions</th><th>Quantity</th></tr></thead><tbody><tr><td colspan=\"5\">No relevant information available for this category.</td></tr></tbody></table></div>"
            }
          },
          {
            "title": "Diagnoses",
            "code": {
              "coding": [
                {
                  "code": "DiagnosesHeader"
                }
              ]
            },
            "text": {
              "status": "generated",
              "div": "<div xmlns=\"http://www.w3.org/1999/xhtml\"><table id=\"Diagnoses\"><thead><tr><th>Date</th><th>Description</th><th>Additional information</th></tr></thead><tbody><tr class=\"oddRow\"><td>05-Jan-2014</td><td>Diabetic retinopathy</td><td>Problem; First, end stage</td></tr><tr class=\"evenRow\"><td>05-Jan-2014</td><td>Glaucoma</td><td>Problem; First</td></tr><tr class=\"oddRow\"><td>17-Dec-2013</td><td>Recurrent urinary tract infection</td><td>Problem; First</td></tr><tr class=\"evenRow\"><td>06-Sep-2013</td><td>Type 2 diabetes mellitus with persistent microalbuminuria</td><td>Problem; First</td></tr><tr class=\"oddRow\"><td>28-Nov-2012</td><td>Chronic kidney disease stage 3</td><td>Problem; First</td></tr><tr class=\"evenRow\"><td>07-Jan-2012</td><td>Anxiety with depression</td><td>Problem; First</td></tr><tr class=\"oddRow\"><td>01-Mar-2011</td><td>Mitral regurgitation</td><td/></tr><tr class=\"evenRow\"><td>01-Mar-2011</td><td>Tricuspid regurgitation, cause unspecified</td><td>See report</td></tr><tr class=\"oddRow\"><td>01-Jan-2011</td><td>Atrial fibrillation</td><td>Problem; First</td></tr><tr class=\"evenRow\"><td>19-May-2010</td><td>Basal cell carcinoma</td><td>excision</td></tr><tr class=\"oddRow\"><td>19-Jan-2010</td><td>Heart failure</td><td>Problem; First</td></tr><tr class=\"evenRow\"><td>19-Jan-2009</td><td>Eczema NOS</td><td/></tr><tr class=\"oddRow\"><td>19-May-2007</td><td>Cataract</td><td>Laterality: Left</td></tr><tr class=\"evenRow\"><td>27-Jan-2006</td><td>[M]Squamous cell carcinoma NOS</td><td>Problem; First, Fully excised invasive squamous cell carcinoma on the chin of the patient. No cervical lymphadenopathy. Histology confirmed a keratoacanthomatous   squamous cell carcinoma</td></tr><tr class=\"oddRow\"><td>08-May-2002</td><td>Type 2 diabetes mellitus</td><td/></tr><tr class=\"evenRow\"><td>08-May-2002</td><td>Type II diabetes mellitus</td><td>Problem; First</td></tr><tr class=\"oddRow\"><td>08-Jan-2002</td><td>Hypercholesterolaemia</td><td/></tr><tr class=\"evenRow\"><td>08-Jan-2002</td><td>Hypercholesterolaemia</td><td>Problem; First</td></tr><tr class=\"oddRow\"><td>01-May-2001</td><td>Second degree uterine prolapse</td><td>Problem; First, Has had the prolapse for many years but has become more prominent in early Feb 2001</td></tr><tr class=\"evenRow\"><td>01-Dec-1985</td><td>Essential hypertension</td><td>Problem; First</td></tr><tr class=\"oddRow\"><td>01-Jan-1985</td><td>Solar keratosis</td><td>nose (letter dated 25/01/85) states curetted</td></tr></tbody></table></div>"
            }
          },
          {
            "title": "Problems and Issues",
            "code": {
              "coding": [
                {
                  "code": "ProblemsHeader"
                }
              ]
            },
            "text": {
              "status": "generated",
              "div": "<div xmlns=\"http://www.w3.org/1999/xhtml\"><table id=\"Problems\"><thead><tr><th>Date</th><th>Description</th><th>Additional information</th></tr></thead><tbody><tr class=\"oddRow\"><td>05-Jan-2014</td><td>Diabetic retinopathy</td><td>Significant Active, end stage</td></tr><tr class=\"evenRow\"><td>05-Jan-2014</td><td>Glaucoma</td><td>Significant Active</td></tr><tr class=\"oddRow\"><td>17-Dec-2013</td><td>Recurrent urinary tract infection</td><td>Significant Past, End Date : 09-Jan-2015</td></tr><tr class=\"evenRow\"><td>06-Sep-2013</td><td>Type 2 diabetes mellitus with persistent microalbuminuria</td><td>Significant Active</td></tr><tr class=\"oddRow\"><td>08-Jan-2013</td><td>GSF prognostic indicator stage B (green) - months prognosis</td><td>Minor Active</td></tr><tr class=\"evenRow\"><td>28-Nov-2012</td><td>Chronic kidney disease stage 3</td><td>Significant Active</td></tr><tr class=\"oddRow\"><td>08-Jan-2012</td><td>Patient's next of kin</td><td>Minor Active, Daughter's tel number is xxxxx xxxxxx</td></tr><tr class=\"evenRow\"><td>07-Jan-2012</td><td>Anxiety with depression</td><td>Minor Past, End Date : 04-Mar-2015</td></tr><tr class=\"oddRow\"><td>01-Jan-2011</td><td>Atrial fibrillation</td><td>Significant Active</td></tr><tr class=\"evenRow\"><td>19-May-2010</td><td>Excision biopsy of basal cell carcinoma</td><td>Significant Past, End Date : 09-Jan-2015, Right cheek</td></tr><tr class=\"oddRow\"><td>19-Jan-2010</td><td>Heart failure</td><td>Significant Active</td></tr><tr class=\"evenRow\"><td>27-Jan-2006</td><td>[M]Squamous cell carcinoma NOS</td><td>Significant Past, End Date : 09-Jan-2015, Fully excised invasive squamous cell carcinoma on the chin of the patient. No cervical lymphadenopathy. Histology confirmed a keratoacanthomatous   squamous cell carcinoma</td></tr><tr class=\"oddRow\"><td>01-Oct-2005</td><td>Excision biopsy of basal cell carcinoma</td><td>Significant Past, End Date : 09-Jan-2015, left side of forehead</td></tr><tr class=\"evenRow\"><td>08-May-2002</td><td>Type II diabetes mellitus</td><td>Significant Active</td></tr><tr class=\"oddRow\"><td>08-Jan-2002</td><td>Hypercholesterolaemia</td><td>Significant Active</td></tr><tr class=\"evenRow\"><td>01-May-2001</td><td>Second degree uterine prolapse</td><td>Minor Past, End Date : 09-Jan-2015, Has had the prolapse for many years but has become more prominent in early Feb 2001</td></tr><tr class=\"oddRow\"><td>01-Dec-1985</td><td>Essential hypertension</td><td>Significant Active</td></tr><tr class=\"evenRow\"><td>02-Feb-1965</td><td>CONFIDENTIAL – Item not available</td><td/></tr></tbody></table></div>"
            }
          },
          {
            "title": "Clinical Observations and Findings",
            "code": {
              "coding": [
                {
                  "code": "ObservationsHeader"
                }
              ]
            },
            "text": {
              "status": "generated",
              "div": "<div xmlns=\"http://www.w3.org/1999/xhtml\"><table id=\"Observations\"><thead><tr><th>Date</th><th>Description</th><th>Additional information</th></tr></thead><tbody><tr class=\"oddRow\"><td>10-May-2016</td><td>Disability - severe</td><td>Test if included in latest Inclusion Set</td></tr><tr class=\"evenRow\"><td>16-Apr-2014</td><td>Interpreter needed</td><td/></tr><tr class=\"oddRow\"><td>08-Jan-2013</td><td>GSF prognostic indicator stage B (green) - months prognosis</td><td>Problem; First</td></tr><tr class=\"evenRow\"><td>02-Feb-1965</td><td>CONFIDENTIAL – Item not available</td><td/></tr></tbody></table></div>"
            }
          },
          {
            "title": "Treatments",
            "code": {
              "coding": [
                {
                  "code": "TreatmentsHeader"
                }
              ]
            },
            "text": {
              "status": "generated",
              "div": "<div xmlns=\"http://www.w3.org/1999/xhtml\"><table id=\"Treatments\"><thead><tr><th>Date</th><th>Description</th><th>Additional information</th></tr></thead><tbody><tr class=\"oddRow\"><td>07-Oct-2014</td><td>Influenza vaccination</td><td/></tr><tr class=\"evenRow\"><td>02-Jun-2014</td><td>Admission avoidance care started</td><td/></tr><tr class=\"oddRow\"><td>02-Oct-2013</td><td>Influenza vaccination</td><td/></tr><tr class=\"evenRow\"><td>10-Oct-2012</td><td>Influenza vaccination</td><td/></tr><tr class=\"oddRow\"><td>19-May-2010</td><td>Excision biopsy of basal cell carcinoma</td><td>Problem; New, Right cheek</td></tr><tr class=\"evenRow\"><td>19-Oct-2009</td><td>Influenza vaccination</td><td/></tr><tr class=\"oddRow\"><td>01-Oct-2008</td><td>Influenza vaccination</td><td/></tr><tr class=\"evenRow\"><td>01-Oct-2007</td><td>Influenza vaccination</td><td/></tr><tr class=\"oddRow\"><td>01-Oct-2005</td><td>Excision biopsy of basal cell carcinoma</td><td>Problem; First, left side of forehead</td></tr><tr class=\"evenRow\"><td>17-Aug-2001</td><td>Repair of vaginal prolapse &amp; amputation of cervix uteri NOS</td><td/></tr><tr class=\"oddRow\"><td>02-Oct-1995</td><td>Second hepatitis A and typhoid vaccination</td><td/></tr><tr class=\"evenRow\"><td>04-Mar-1995</td><td>First hepatitis A and typhoid vaccination</td><td/></tr><tr class=\"oddRow\"><td>24-Feb-1995</td><td>Third polio vaccination</td><td/></tr><tr class=\"evenRow\"><td>30-Jan-1995</td><td>Second polio vaccination</td><td/></tr><tr class=\"oddRow\"><td>09-Jan-1995</td><td>First polio vaccination</td><td/></tr></tbody></table></div>"
            }
          },
          {
            "title": "Investigation Results",
            "code": {
              "coding": [
                {
                  "code": "ResultsHeader"
                }
              ]
            },
            "text": {
              "status": "generated",
              "div": "<div xmlns=\"http://www.w3.org/1999/xhtml\"><table id=\"Results\"><thead><tr><th>Date</th><th>Description</th><th>Additional information</th></tr></thead><tbody><tr class=\"oddRow\"><td>02-Mar-2011</td><td>Echocardiogram abnormal</td><td/></tr></tbody></table></div>"
            }
          },
          {
            "title": "Provision of Advice and Information to Patients and Carers",
            "code": {
              "coding": [
                {
                  "code": "AdviceHeader"
                }
              ]
            },
            "text": {
              "status": "generated",
              "div": "<div xmlns=\"http://www.w3.org/1999/xhtml\"><table id=\"Advice\"><thead><tr><th>Date</th><th>Description</th><th>Additional information</th></tr></thead><tbody><tr class=\"oddRow\"><td>03-Jul-2014</td><td>Preferred place of death: discussed with family</td><td/></tr></tbody></table></div>"
            }
          },
          {
            "title": "Personal Preferences",
            "code": {
              "coding": [
                {
                  "code": "PreferencesHeader"
                }
              ]
            },
            "text": {
              "status": "generated",
              "div": "<div xmlns=\"http://www.w3.org/1999/xhtml\"><table id=\"Preferences\"><thead><tr><th>Date</th><th>Description</th><th>Additional information</th></tr></thead><tbody><tr class=\"oddRow\"><td>30-Jul-2014</td><td>Not for resuscitation</td><td/></tr><tr class=\"evenRow\"><td>30-Jul-2014</td><td>Preferred place of care - care home</td><td/></tr><tr class=\"oddRow\"><td>30-Jan-2013</td><td>Preferred place of death: patient undecided</td><td/></tr></tbody></table></div>"
            }
          },
          {
            "title": "Services, Care Professionals and Carers",
            "code": {
              "coding": [
                {
                  "code": "ServicesHeader"
                }
              ]
            },
            "text": {
              "status": "generated",
              "div": "<div xmlns=\"http://www.w3.org/1999/xhtml\"><table id=\"Services\"><thead><tr><th>Date</th><th>Description</th><th>Additional information</th></tr></thead><tbody><tr class=\"oddRow\"><td>28-Apr-2015</td><td>Under care of cardiologist</td><td/></tr><tr class=\"evenRow\"><td>08-Dec-2014</td><td>Chiropody</td><td>Saw podiatrist in August 2013</td></tr><tr class=\"oddRow\"><td>08-Dec-2014</td><td>Chiropody</td><td/></tr><tr class=\"evenRow\"><td>08-Sep-2014</td><td>District nurse attends</td><td>1 times/week</td></tr><tr class=\"oddRow\"><td>08-Sep-2013</td><td>District nurse attends</td><td>1 times/week</td></tr><tr class=\"evenRow\"><td>10-Feb-2013</td><td>District nurse attends</td><td>2 times/week</td></tr><tr class=\"oddRow\"><td>21-Sep-2011</td><td>District nurse attends</td><td>1 times/week</td></tr></tbody></table></div>"
            }
          },
          {
            "title": "Social and Personal Circumstances",
            "code": {
              "coding": [
                {
                  "code": "CircumstancesHeader"
                }
              ]
            },
            "text": {
              "status": "generated",
              "div": "<div xmlns=\"http://www.w3.org/1999/xhtml\"><table id=\"Circumstances\"><thead><tr><th>Date</th><th>Description</th><th>Additional information</th></tr></thead><tbody><tr class=\"oddRow\"><td>16-Apr-2014</td><td>Main spoken language Farsi</td><td/></tr><tr class=\"evenRow\"><td>08-Jan-2012</td><td>Patient's next of kin</td><td>Problem; First, Daughter's tel number is xxxxx xxxxxx</td></tr><tr class=\"oddRow\"><td>03-Sep-2010</td><td>Main spoken language English</td><td/></tr></tbody></table><p id=\"SendTime\">Summary Sent: 13-Dec-2017 09:14</p></div>"
            }
          }
        ]
      }
    },
    {
      "fullUrl": "https://int.api.service.nhs.uk/summary-care-record/FHIR/R4/Practitioner/AF946FF8-D3A1-4008-A8BD-5F26AE9C39EE",
      "resource": {
        "resourceType": "Practitioner",
        "id": "AF946FF8-D3A1-4008-A8BD-5F26AE9C39EE",
        "name": [
          {
            "text": "XXX DO NOT USE XXX NIC TEST PRACTICE 14"
          }
        ]
      }
    },
    {
      "fullUrl": "https://int.api.service.nhs.uk/summary-care-record/FHIR/R4/PractitionerRole/D4905766-B447-4DDC-A57C-916901F2F9D3",
      "resource": {
        "resourceType": "PractitionerRole",
        "id": "D4905766-B447-4DDC-A57C-916901F2F9D3",
        "practitioner": {
          "reference": "Practitioner/AF946FF8-D3A1-4008-A8BD-5F26AE9C39EE"
        },
        "organization": {
          "reference": "Organization/44EDB872-92CD-4830-A95A-5804E94D6881"
        },
        "code": [
          {
            "coding": [
              {
                "system": "https://fhir.nhs.uk/CodeSystem/HL7v3-SDSJobRoleName",
                "code": "NR0260",
                "display": "General Medical Practitioner"
              }
            ]
          }
        ]
      }
    },
    {
      "fullUrl": "https://int.api.service.nhs.uk/summary-care-record/FHIR/R4/Organization/44EDB872-92CD-4830-A95A-5804E94D6881",
      "resource": {
        "resourceType": "Organization",
        "id": "44EDB872-92CD-4830-A95A-5804E94D6881",
        "address": [
          {
            "text": "UNK"
          }
        ]
      }
    },
    {
      "fullUrl": "https://int.api.service.nhs.uk/summary-care-record/FHIR/R4/Patient/B5CF03CD-B48F-4A62-B7A7-951697AD5684",
      "resource": {
        "resourceType": "Patient",
        "id": "B5CF03CD-B48F-4A62-B7A7-951697AD5684",
        "identifier": [
          {
            "system": "https://fhir.nhs.uk/Id/nhs-number",
            "value": "9693195701"
          }
        ]
      }
    }
  ]
}
