{
  "resourceType": "Bundle",
  "id": "AFB91B4E-61C0-411B-B835-9185E3D6597C",
  "identifier": {
    "system": "https://tools.ietf.org/html/rfc4122",
    "value": "D2A87C77-6A9E-11EB-A8AC-F40343488B15"
  },
  "type": "searchset",
  "timestamp": "2021-02-09T06:19:54.000+01:00",
  "total": 58,
  "entry": [
    {
      "fullUrl": "https://int.api.service.nhs.uk/summary-care-record/FHIR/R4/Composition/12345678-C403-4EF7-A4AB-E07303AF5477",
      "resource": {
        "resourceType": "Composition",
        "id": "12345678-C403-4EF7-A4AB-E07303AF5477",
        "meta": {
          "lastUpdated": "2020-11-17T01:00:00.000+01:00"
        },
        "identifier": {
          "system": "https://tools.ietf.org/html/rfc4122",
          "value": "BF4180FD-C403-4EF7-A4AB-E07303AF5477"
        },
        "status": "final",
        "type": {
          "coding": [
            {
              "system": "2.16.840.1.113883.2.1.3.2.4.15",
              "code": "196981000000101",
              "display": "General Practice Summary"
            }
          ]
        },
        "category": [
          {
            "coding": [
              {
                "system": "2.16.840.1.113883.2.1.3.2.4.15",
                "code": "163171000000105",
                "display": "Care Professional Documentation"
              }
            ]
          }
        ],
        "subject": {
          "reference": "Patient/844A0BF2-67C8-49BA-878B-F7720B79F77C"
        },
        "date": "2020-11-17T01:00:00+01:00",
        "author": [
          {
            "reference": "PractitionerRole/BBE37DAA-CA71-4082-BF70-59834D334BBD"
          }
        ],
        "relatesTo": [
          {
            "code": "replaces",
            "targetIdentifier": {
              "value": "D18B57ED-992E-45A2-A6AF-55200D20F48E"
            }
          }
        ],
        "section": [
          {
            "code": {
              "coding": [
                {
                  "code": "Title"
                }
              ]
            },
            "text": {
              "status": "generated",
              "div": "<div xmlns=\"http://www.w3.org/1999/xhtml\">\n    <h3 id=\"Disclaimer\">Sourced from the patient's General Practice record. This summary may not include all the information pertinent to this patient.</h3>\n    <p id=\"CreateTime\">Summary Created: 14-May-2020 14:31</p>\n    <p id=\"RegistrationStartedStatement\" class=\"HighlightedStatement\">At the time this record was created, this patient had recently registered with the GP Practice. GP Summary information may not be complete.</p>\n    <p id=\"Author\">Created by: SMITH, Sean (Mr)</p>\n    <p id=\"Practice\">EMISWebCR1 50004, Fulford Grange, Rawdon, Leeds, West Yorkshire, LS19 7BY.</p>\n</div>"
            }
          },
          {
            "code": {
              "coding": [
                {
                  "code": "AllergiesHeader"
                }
              ]
            },
            "text": {
              "status": "generated",
              "div": "<div xmlns=\"http://www.w3.org/1999/xhtml\">\n    <table summary=\"This table includes information about this patient's allergies and adverse reactions.\" id=\"Allergies\">\n        <thead>\n            <tr>\n                <th>Date</th>\n                <th>Description</th>\n                <th>Certainty</th>\n                <th>Severity</th>\n                <th>Supporting Information</th>\n            </tr>\n        </thead>\n        <tbody>\n            <tr class=\"oddRow\">\n                <td>12-May-2020</td>\n                <td>Toxic reaction to wasp sting</td>\n                <td/>\n                <td/>\n                <td>Problem; First</td>\n            </tr>\n        </tbody>\n    </table>\n</div>"
            }
          },
          {
            "code": {
              "coding": [
                {
                  "code": "AcuteMedsHeader"
                }
              ]
            },
            "text": {
              "status": "generated",
              "div": "<div xmlns=\"http://www.w3.org/1999/xhtml\">\n    <table summary=\"This table includes information about this patient's acute medications.\" id=\"AcuteMeds\">\n        <thead>\n            <tr>\n                <th>Type</th>\n                <th>Date</th>\n                <th>Medication Item</th>\n                <th>Dosage Instructions</th>\n                <th>Quantity</th>\n            </tr>\n        </thead>\n        <tbody>\n            <tr class=\"oddRow\">\n                <td>Acute Medication</td>\n                <td>Prescribed: 12-May-2020</td>\n                <td>Co-codamol 8mg/500mg effervescent tablets</td>\n                <td>One To Be Taken Four Times A Day</td>\n                <td>112 tablet</td>\n            </tr>\n        </tbody>\n    </table>\n</div>"
            }
          },
          {
            "code": {
              "coding": [
                {
                  "code": "RepeatMedsHeader"
                }
              ]
            },
            "text": {
              "status": "generated",
              "div": "<div xmlns=\"http://www.w3.org/1999/xhtml\">\n    <table summary=\"This table includes information about this patient's current repeat medications.\" id=\"RepeatMeds\">\n        <thead>\n            <tr>\n                <th>Type</th>\n                <th>Date</th>\n                <th>Medication Item</th>\n                <th>Dosage Instructions</th>\n                <th>Quantity</th>\n            </tr>\n        </thead>\n        <tbody>\n            <tr class=\"oddRow\">\n                <td>Repeat Medication</td>\n                <td>Last Issued: 12-May-2020</td>\n                <td>Paracetamol 250mg/5ml oral suspension</td>\n                <td>One 5ml Spoonful Every 4 To 6 Hours When Necessary. No More Than 4 doses in 24 Hours</td>\n                <td>40 ml</td>\n            </tr>\n        </tbody>\n    </table>\n</div>"
            }
          },
          {
            "code": {
              "coding": [
                {
                  "code": "DiscRepeatMedsHeader"
                }
              ]
            },
            "text": {
              "status": "generated",
              "div": "<div xmlns=\"http://www.w3.org/1999/xhtml\">\n    <table summary=\"This table includes information about this patient's discontinued repeat medications.\" id=\"DiscRepeatMeds\">\n        <thead>\n            <tr>\n                <th>Type</th>\n                <th>Date</th>\n                <th>Medication Item</th>\n                <th>Dosage Instructions</th>\n                <th>Quantity</th>\n            </tr>\n        </thead>\n        <tbody>\n            <tr>\n                <td colspan=\"5\">No relevant information available for this category.</td>\n            </tr>\n        </tbody>\n    </table>\n</div>"
            }
          },
          {
            "code": {
              "coding": [
                {
                  "code": "RisksToPatientHeader"
                }
              ]
            },
            "text": {
              "status": "generated",
              "div": "<div xmlns=\"http://www.w3.org/1999/xhtml\">\n    <table id=\"RisksToPatient\">\n        <thead>\n            <tr>\n                <th>Date</th>\n                <th>Description</th>\n                <th>Additional information</th>\n            </tr>\n        </thead>\n        <tbody>\n            <tr class=\"oddRow\">\n                <td>14-May-2020</td>\n                <td>Low risk category for developing complication from COVID-19 infection</td>\n                <td>Problem; Review</td>\n            </tr>\n        </tbody>\n    </table>\n</div>"
            }
          },
          {
            "code": {
              "coding": [
                {
                  "code": "DiagnosesHeader"
                }
              ]
            },
            "text": {
              "status": "generated",
              "div": "<div xmlns=\"http://www.w3.org/1999/xhtml\">\n    <table id=\"Diagnoses\">\n        <thead>\n            <tr>\n                <th>Date</th>\n                <th>Description</th>\n                <th>Additional information</th>\n            </tr>\n        </thead>\n        <tbody>\n            <tr class=\"oddRow\">\n                <td>13-May-2020</td>\n                <td>COVID-19 confirmed by laboratory test</td>\n                <td>Problem; First, test</td>\n            </tr>\n        </tbody>\n    </table>\n</div>"
            }
          },
          {
            "code": {
              "coding": [
                {
                  "code": "ProblemsHeader"
                }
              ]
            },
            "text": {
              "status": "generated",
              "div": "<div xmlns=\"http://www.w3.org/1999/xhtml\">\n    <table id=\"Problems\">\n        <thead>\n            <tr>\n                <th>Date</th>\n                <th>Description</th>\n                <th>Additional information</th>\n            </tr>\n        </thead>\n        <tbody>\n            <tr class=\"oddRow\">\n                <td>14-May-2020</td>\n                <td>2019-nCoV (novel coronavirus) detected</td>\n                <td>Significant Active</td>\n            </tr>\n        </tbody>\n    </table>\n</div>"
            }
          },
          {
            "code": {
              "coding": [
                {
                  "code": "ObservationsHeader"
                }
              ]
            },
            "text": {
              "status": "generated",
              "div": "<div xmlns=\"http://www.w3.org/1999/xhtml\">\n    <table id=\"Observations\">\n        <thead>\n            <tr>\n                <th>Date</th>\n                <th>Description</th>\n                <th>Additional information</th>\n            </tr>\n        </thead>\n        <tbody>\n            <tr class=\"oddRow\">\n                <td>14-May-2020</td>\n                <td>2019-nCoV (novel coronavirus) detected</td>\n                <td>Problem; New</td>\n            </tr>\n        </tbody>\n    </table>\n</div>"
            }
          },
          {
            "code": {
              "coding": [
                {
                  "code": "TreatmentsHeader"
                }
              ]
            },
            "text": {
              "status": "generated",
              "div": "<div xmlns=\"http://www.w3.org/1999/xhtml\">\n    <table id=\"Treatments\">\n        <thead>\n            <tr>\n                <th>Date</th>\n                <th>Description</th>\n                <th>Additional information</th>\n            </tr>\n        </thead>\n        <tbody>\n            <tr class=\"oddRow\">\n                <td>13-May-2020</td>\n                <td>2019-nCoV (novel coronavirus) vaccination</td>\n                <td>Problem; First, Manufacturer: jh, Expiry Date: 29-May-2020, Batch Number: 2, GMS: GMS, Injection site: Left arm, test</td>\n            </tr>\n        </tbody>\n    </table>\n</div>"
            }
          },
          {
            "code": {
              "coding": [
                {
                  "code": "ResultsHeader"
                }
              ]
            },
            "text": {
              "status": "generated",
              "div": "<div xmlns=\"http://www.w3.org/1999/xhtml\">\n    <table id=\"Results\">\n        <thead>\n            <tr>\n                <th>Date</th>\n                <th>Description</th>\n                <th>Additional information</th>\n            </tr>\n        </thead>\n        <tbody>\n            <tr class=\"oddRow\">\n                <td>13-May-2020</td>\n                <td>Assessment using COVID-19 severity scale</td>\n                <td>Problem; First, test</td>\n            </tr>\n        </tbody>\n    </table>\n</div>"
            }
          },
          {
            "code": {
              "coding": [
                {
                  "code": "EventsHeader"
                }
              ]
            },
            "text": {
              "status": "generated",
              "div": "<div xmlns=\"http://www.w3.org/1999/xhtml\">\n    <table id=\"Events\">\n        <thead>\n            <tr>\n                <th>Date</th>\n                <th>Description</th>\n                <th>Additional information</th>\n            </tr>\n        </thead>\n        <tbody>\n            <tr class=\"oddRow\">\n                <td>13-May-2020</td>\n                <td>Did not attend 2019-nCoV (novel coronavirus) vaccination</td>\n                <td>Problem; First, test</td>\n            </tr>\n        </tbody>\n    </table>\n</div>"
            }
          },
          {
            "code": {
              "coding": [
                {
                  "code": "ProceduresHeader"
                }
              ]
            },
            "text": {
              "status": "generated",
              "div": "<div xmlns=\"http://www.w3.org/1999/xhtml\">\n    <table id=\"Procedures\">\n        <thead>\n            <tr>\n                <th>Date</th>\n                <th>Description</th>\n                <th>Additional information</th>\n            </tr>\n        </thead>\n        <tbody>\n            <tr class=\"oddRow\">\n                <td>14-May-2020</td>\n                <td>Household isolation note issued to patient</td>\n                <td>Test</td>\n            </tr>\n        </tbody>\n    </table>\n</div>"
            }
          },
          {
            "code": {
              "coding": [
                {
                  "code": "AdviceHeader"
                }
              ]
            },
            "text": {
              "status": "generated",
              "div": "<div xmlns=\"http://www.w3.org/1999/xhtml\">\n    <table id=\"Advice\">\n        <thead>\n            <tr>\n                <th>Date</th>\n                <th>Description</th>\n                <th>Additional information</th>\n            </tr>\n        </thead>\n        <tbody>\n            <tr class=\"oddRow\">\n                <td>13-May-2020</td>\n                <td>Advice given about SARS-CoV-2 (severe acute respiratory syndrome coronavirus 2) by telephone</td>\n                <td>Problem; First, test</td>\n            </tr>\n        </tbody>\n    </table>\n</div>"
            }
          },
          {
            "code": {
              "coding": [
                {
                  "code": "PreferencesHeader"
                }
              ]
            },
            "text": {
              "status": "generated",
              "div": "<div xmlns=\"http://www.w3.org/1999/xhtml\">\n    <table id=\"Preferences\">\n        <thead>\n            <tr>\n                <th>Date</th>\n                <th>Description</th>\n                <th>Additional information</th>\n            </tr>\n        </thead>\n        <tbody>\n            <tr class=\"oddRow\">\n                <td>13-May-2020</td>\n                <td>2019-nCoV (novel coronavirus) vaccination declined</td>\n                <td>Problem; First, test</td>\n            </tr>\n        </tbody>\n    </table>\n    <p id=\"SendTime\">Summary Sent: 14-May-2020 14:31</p>\n</div>"
            }
          }
        ]
      }
    },
    {
      "fullUrl": "https://int.api.service.nhs.uk/summary-care-record/FHIR/R4/PractitionerRole/BBE37DAA-CA71-4082-BF70-59834D334BBD",
      "resource": {
        "resourceType": "PractitionerRole",
        "id": "BBE37DAA-CA71-4082-BF70-59834D334BBD",
        "identifier": [
          {
            "system": "http://fhir.nhs.net/Id/sds-role-profile-id",
            "value": "673836492727"
          }
        ],
        "practitioner": {
          "reference": "Practitioner/A0209323-979B-46A0-9F62-87D847557E0B"
        }
      }
    },
    {
      "fullUrl": "https://int.api.service.nhs.uk/summary-care-record/FHIR/R4/Practitioner/A0209323-979B-46A0-9F62-87D847557E0B",
      "resource": {
        "resourceType": "Practitioner",
        "id": "A0209323-979B-46A0-9F62-87D847557E0B",
        "identifier": [
          {
            "system": "https://fhir.nhs.uk/Id/sds-user-id",
            "value": "676789689789"
          }
        ],
        "name": [
          {
            "text": "Dr Steve Jones"
          }
        ]
      }
    },
    {
      "fullUrl": "https://int.api.service.nhs.uk/summary-care-record/FHIR/R4/Condition/FCB84E15-02E5-495C-B334-D0685DCB0687",
      "resource": {
        "resourceType": "Condition",
        "id": "FCB84E15-02E5-495C-B334-D0685DCB0687",
        "identifier": [
          {
            "value": "FCB84E15-02E5-495C-B334-D0685DCB0687"
          }
        ],
        "verificationStatus": {
          "coding": [
            {
              "system": "http://hl7.org/fhir/ValueSet/condition-ver-status",
              "code": "entered-in-error"
            }
          ]
        },
        "category": [
          {
            "coding": [
              {
                "system": "http://snomed.info/sct",
                "code": "163001000000103",
                "display": "Diagnoses"
              }
            ]
          }
        ],
        "code": {
          "coding": [
            {
              "system": "http://snomed.info/sct",
              "code": "1240751000000100",
              "display": "COVID-19"
            }
          ]
        },
        "encounter": {
          "reference": "Encounter/6C7C515E-F616-476F-86A2-B2156446634B"
        },
        "onsetDateTime": "2020-05-06T12:48:19+02:00"
      }
    },
    {
      "fullUrl": "https://int.api.service.nhs.uk/summary-care-record/FHIR/R4/PractitionerRole/CEE7424A-3B5D-49B9-B141-DB8970E4FBD3",
      "resource": {
        "resourceType": "PractitionerRole",
        "id": "CEE7424A-3B5D-49B9-B141-DB8970E4FBD3",
        "identifier": [
          {
            "system": "http://fhir.nhs.net/Id/sds-role-profile-id",
            "value": "673836492727"
          }
        ],
        "practitioner": {
          "reference": "Practitioner/C39A6DF2-5DE2-4309-BE93-F1318B559BCC"
        }
      }
    },
    {
      "fullUrl": "https://int.api.service.nhs.uk/summary-care-record/FHIR/R4/Practitioner/C39A6DF2-5DE2-4309-BE93-F1318B559BCC",
      "resource": {
        "resourceType": "Practitioner",
        "id": "C39A6DF2-5DE2-4309-BE93-F1318B559BCC",
        "identifier": [
          {
            "system": "https://fhir.nhs.uk/Id/sds-user-id",
            "value": "676789689789"
          }
        ],
        "name": [
          {
            "text": "Dr Steve Jones"
          }
        ]
      }
    },
    {
      "fullUrl": "https://int.api.service.nhs.uk/summary-care-record/FHIR/R4/Encounter/6C7C515E-F616-476F-86A2-B2156446634B",
      "resource": {
        "resourceType": "Encounter",
        "id": "6C7C515E-F616-476F-86A2-B2156446634B",
        "status": "finished",
        "class": {
          "system": "http://terminology.hl7.org/CodeSystem/v3-NullFlavor",
          "code": "UNK",
          "display": "Unknown"
        },
        "participant": [
          {
            "type": [
              {
                "coding": [
                  {
                    "system": "http://terminology.hl7.org/CodeSystem/v3-ParticipationType",
                    "code": "AUT",
                    "display": "author"
                  }
                ]
              }
            ],
            "period": {
              "start": "2020-11-17T01:00:00+01:00"
            },
            "individual": {
              "reference": "PractitionerRole/CEE7424A-3B5D-49B9-B141-DB8970E4FBD3"
            }
          }
        ]
      }
    },
    {
      "fullUrl": "https://int.api.service.nhs.uk/summary-care-record/FHIR/R4/Condition/0F582D97-8F89-11EA-8B2D-B741F13EFC47",
      "resource": {
        "resourceType": "Condition",
        "id": "0F582D97-8F89-11EA-8B2D-B741F13EFC47",
        "identifier": [
          {
            "value": "0F582D97-8F89-11EA-8B2D-B741F13EFC47"
          }
        ],
        "verificationStatus": {
          "coding": [
            {
              "system": "http://hl7.org/fhir/ValueSet/condition-ver-status",
              "code": "entered-in-error"
            }
          ]
        },
        "category": [
          {
            "coding": [
              {
                "system": "http://snomed.info/sct",
                "code": "163001000000103",
                "display": "Diagnoses"
              }
            ]
          }
        ],
        "code": {
          "coding": [
            {
              "system": "http://snomed.info/sct",
              "code": "1300721000000109",
              "display": "COVID-19 confirmed by laboratory test"
            }
          ]
        },
        "encounter": {
          "reference": "Encounter/C6B4ED3D-FD64-448D-9637-B67F630C5AC4"
        },
        "onsetDateTime": "2020-05-06T12:48:19+02:00",
        "evidence": [
          {
            "detail": [
              {
                "reference": "Observation/F17999D2-FFE7-4CA4-8CE8-52CB45FF6F49"
              }
            ]
          }
        ],
        "note": [
          {
            "text": "Problem; First, test"
          }
        ]
      }
    },
    {
      "fullUrl": "https://int.api.service.nhs.uk/summary-care-record/FHIR/R4/Practitioner/39EFA327-C800-4213-BA45-7030A95B7A0E",
      "resource": {
        "resourceType": "Practitioner",
        "id": "39EFA327-C800-4213-BA45-7030A95B7A0E",
        "name": [
          {
            "text": "BLOGGS Fred"
          }
        ]
      }
    },
    {
      "fullUrl": "https://int.api.service.nhs.uk/summary-care-record/FHIR/R4/PractitionerRole/0492B0EE-606E-4984-A66D-78DC507C057E",
      "resource": {
        "resourceType": "PractitionerRole",
        "id": "0492B0EE-606E-4984-A66D-78DC507C057E",
        "practitioner": {
          "reference": "Practitioner/39EFA327-C800-4213-BA45-7030A95B7A0E"
        },
        "organization": {
          "reference": "Organization/85DCC75C-08FD-4112-AC8E-59EFA804851F"
        },
        "code": [
          {
            "coding": [
              {
                "system": "https://fhir.nhs.uk/CodeSystem/HL7v3-SDSJobRoleName",
                "code": "NR0050",
                "display": "Consultant"
              }
            ]
          }
        ]
      }
    },
    {
      "fullUrl": "https://int.api.service.nhs.uk/summary-care-record/FHIR/R4/Organization/85DCC75C-08FD-4112-AC8E-59EFA804851F",
      "resource": {
        "resourceType": "Organization",
        "id": "85DCC75C-08FD-4112-AC8E-59EFA804851F",
        "telecom": [
          {
            "system": "phone",
            "value": "0177865579"
          },
          {
            "system": "phone",
            "value": "0189834144"
          }
        ],
        "address": [
          {
            "line": [
              "ORG ADDRESS"
            ]
          }
        ]
      }
    },
    {
      "fullUrl": "https://int.api.service.nhs.uk/summary-care-record/FHIR/R4/Encounter/C6B4ED3D-FD64-448D-9637-B67F630C5AC4",
      "resource": {
        "resourceType": "Encounter",
        "id": "C6B4ED3D-FD64-448D-9637-B67F630C5AC4",
        "status": "finished",
        "class": {
          "system": "http://terminology.hl7.org/CodeSystem/v3-NullFlavor",
          "code": "UNK",
          "display": "Unknown"
        },
        "participant": [
          {
            "type": [
              {
                "coding": [
                  {
                    "system": "http://terminology.hl7.org/CodeSystem/v3-ParticipationType",
                    "code": "AUT",
                    "display": "author"
                  }
                ]
              }
            ],
            "period": {
              "start": "2020-11-18T01:00:00+01:00"
            },
            "individual": {
              "reference": "PractitionerRole/0492B0EE-606E-4984-A66D-78DC507C057E"
            }
          }
        ]
      }
    },
    {
      "fullUrl": "https://int.api.service.nhs.uk/summary-care-record/FHIR/R4/Condition/958E584C-25B8-4BD7-A71D-7625FDC1ACD6",
      "resource": {
        "resourceType": "Condition",
        "id": "958E584C-25B8-4BD7-A71D-7625FDC1ACD6",
        "identifier": [
          {
            "value": "958E584C-25B8-4BD7-A71D-7625FDC1ACD6"
          }
        ],
        "verificationStatus": {
          "coding": [
            {
              "system": "http://hl7.org/fhir/ValueSet/condition-ver-status",
              "code": "entered-in-error"
            }
          ]
        },
        "category": [
          {
            "coding": [
              {
                "system": "http://snomed.info/sct",
                "code": "163001000000103",
                "display": "Diagnoses"
              }
            ]
          }
        ],
        "code": {
          "coding": [
            {
              "system": "http://snomed.info/sct",
              "code": "1300731000000106",
              "display": "COVID-19 confirmed using clinical diagnostic criteria"
            }
          ]
        },
        "encounter": {
          "reference": "Encounter/8CFA1387-CC67-446C-98C0-827B6EA254AB"
        },
        "onsetDateTime": "2020-05-06T12:48:19+02:00"
      }
    },
    {
      "fullUrl": "https://int.api.service.nhs.uk/summary-care-record/FHIR/R4/Practitioner/52BFFED1-E362-4382-8B94-CFF23E01A5E2",
      "resource": {
        "resourceType": "Practitioner",
        "id": "52BFFED1-E362-4382-8B94-CFF23E01A5E2",
        "name": [
          {
            "text": "William Jones"
          }
        ]
      }
    },
    {
      "fullUrl": "https://int.api.service.nhs.uk/summary-care-record/FHIR/R4/PractitionerRole/AE43E0F8-C870-4DE3-959E-8D48E0ABB081",
      "resource": {
        "resourceType": "PractitionerRole",
        "id": "AE43E0F8-C870-4DE3-959E-8D48E0ABB081",
        "practitioner": {
          "reference": "Practitioner/52BFFED1-E362-4382-8B94-CFF23E01A5E2"
        },
        "organization": {
          "reference": "Organization/934C2864-3BAC-4AFE-A625-AD21A718A333"
        },
        "code": [
          {
            "coding": [
              {
                "system": "https://fhir.nhs.uk/CodeSystem/HL7v3-SDSJobRoleName",
                "code": "NR0010",
                "display": "Medical Director"
              }
            ]
          }
        ]
      }
    },
    {
      "fullUrl": "https://int.api.service.nhs.uk/summary-care-record/FHIR/R4/Organization/934C2864-3BAC-4AFE-A625-AD21A718A333",
      "resource": {
        "resourceType": "Organization",
        "id": "934C2864-3BAC-4AFE-A625-AD21A718A333",
        "type": [
          {
            "coding": [
              {
                "code": "021"
              }
            ]
          }
        ],
        "name": "Good Health Hospital",
        "telecom": [
          {
            "system": "phone",
            "value": "0122865579"
          },
          {
            "system": "phone",
            "value": "0189664144"
          }
        ],
        "address": [
          {
            "line": [
              "ORG ADDRESS_2"
            ]
          }
        ]
      }
    },
    {
      "fullUrl": "https://int.api.service.nhs.uk/summary-care-record/FHIR/R4/PractitionerRole/9B343FC6-F417-4CAA-9066-FAA26CDF234A",
      "resource": {
        "resourceType": "PractitionerRole",
        "id": "9B343FC6-F417-4CAA-9066-FAA26CDF234A",
        "identifier": [
          {
            "system": "http://fhir.nhs.net/Id/sds-role-profile-id",
            "value": "578934433"
          }
        ],
        "practitioner": {
          "reference": "Practitioner/F0BC55E9-1F9A-4E50-B301-D6E6D2261DD1"
        }
      }
    },
    {
      "fullUrl": "https://int.api.service.nhs.uk/summary-care-record/FHIR/R4/Practitioner/F0BC55E9-1F9A-4E50-B301-D6E6D2261DD1",
      "resource": {
        "resourceType": "Practitioner",
        "id": "F0BC55E9-1F9A-4E50-B301-D6E6D2261DD1",
        "identifier": [
          {
            "system": "https://fhir.nhs.uk/Id/sds-user-id",
            "value": "9054354543"
          }
        ],
        "name": [
          {
            "text": "Anna Maria"
          }
        ]
      }
    },
    {
      "fullUrl": "https://int.api.service.nhs.uk/summary-care-record/FHIR/R4/Encounter/8CFA1387-CC67-446C-98C0-827B6EA254AB",
      "resource": {
        "resourceType": "Encounter",
        "id": "8CFA1387-CC67-446C-98C0-827B6EA254AB",
        "status": "finished",
        "class": {
          "system": "http://terminology.hl7.org/CodeSystem/v3-NullFlavor",
          "code": "UNK",
          "display": "Unknown"
        },
        "participant": [
          {
            "type": [
              {
                "coding": [
                  {
                    "system": "http://terminology.hl7.org/CodeSystem/v3-ParticipationType",
                    "code": "AUT",
                    "display": "author"
                  }
                ]
              }
            ],
            "period": {
              "start": "2020-12-18T01:00:00+01:00"
            },
            "individual": {
              "reference": "PractitionerRole/AE43E0F8-C870-4DE3-959E-8D48E0ABB081"
            }
          },
          {
            "type": [
              {
                "coding": [
                  {
                    "system": "http://terminology.hl7.org/CodeSystem/v3-ParticipationType",
                    "code": "INF",
                    "display": "informant"
                  }
                ]
              }
            ],
            "period": {
              "start": "2016-06-30T10:33:58+02:00"
            },
            "individual": {
              "reference": "PractitionerRole/9B343FC6-F417-4CAA-9066-FAA26CDF234A"
            }
          }
        ]
      }
    },
    {
      "fullUrl": "https://int.api.service.nhs.uk/summary-care-record/FHIR/R4/Condition/8CEB2867-551B-43D0-88B5-3278DA20A6B0",
      "resource": {
        "resourceType": "Condition",
        "id": "8CEB2867-551B-43D0-88B5-3278DA20A6B0",
        "identifier": [
          {
            "value": "8CEB2867-551B-43D0-88B5-3278DA20A6B0"
          }
        ],
        "verificationStatus": {
          "coding": [
            {
              "system": "http://hl7.org/fhir/ValueSet/condition-ver-status",
              "code": "entered-in-error"
            }
          ]
        },
        "category": [
          {
            "coding": [
              {
                "system": "http://snomed.info/sct",
                "code": "163001000000103",
                "display": "Diagnoses"
              }
            ]
          }
        ],
        "code": {
          "coding": [
            {
              "system": "http://snomed.info/sct",
              "code": "1240761000000102",
              "display": "Suspected COVID-19"
            }
          ]
        },
        "encounter": {
          "reference": "Encounter/6CD21AA9-139B-4ACA-A0B9-F6AEE2B39EDD"
        },
        "onsetDateTime": "2020-05-06T12:48:19+02:00"
      }
    },
    {
      "fullUrl": "https://int.api.service.nhs.uk/summary-care-record/FHIR/R4/Practitioner/6DC49183-F8ED-4C62-BC4D-72F8B5565C1F",
      "resource": {
        "resourceType": "Practitioner",
        "id": "6DC49183-F8ED-4C62-BC4D-72F8B5565C1F",
        "name": [
          {
            "text": "Stephan Spence"
          }
        ]
      }
    },
    {
      "fullUrl": "https://int.api.service.nhs.uk/summary-care-record/FHIR/R4/PractitionerRole/95F33E58-42F1-41A1-B66B-4C9677F6C7CA",
      "resource": {
        "resourceType": "PractitionerRole",
        "id": "95F33E58-42F1-41A1-B66B-4C9677F6C7CA",
        "practitioner": {
          "reference": "Practitioner/6DC49183-F8ED-4C62-BC4D-72F8B5565C1F"
        },
        "organization": {
          "reference": "Organization/6E553D49-D518-475F-9B44-2E79752DC72F"
        },
        "code": [
          {
            "coding": [
              {
                "system": "https://fhir.nhs.uk/CodeSystem/HL7v3-SDSJobRoleName",
                "code": "NR0020",
                "display": "Clinical Director - Medical"
              }
            ]
          }
        ]
      }
    },
    {
      "fullUrl": "https://int.api.service.nhs.uk/summary-care-record/FHIR/R4/Organization/6E553D49-D518-475F-9B44-2E79752DC72F",
      "resource": {
        "resourceType": "Organization",
        "id": "6E553D49-D518-475F-9B44-2E79752DC72F",
        "identifier": [
          {
            "system": "https://fhir.nhs.uk/Id/ods-organization-code",
            "value": "57435939053"
          }
        ],
        "name": "Good Health Hospital 2",
        "telecom": [
          {
            "system": "phone",
            "value": "0122865579"
          },
          {
            "system": "phone",
            "value": "0189664144"
          }
        ],
        "address": [
          {
            "line": [
              "ORG ADDRESS_2"
            ]
          }
        ]
      }
    },
    {
      "fullUrl": "https://int.api.service.nhs.uk/summary-care-record/FHIR/R4/RelatedPerson/7D95D8C9-6E4C-4C1C-83A9-DDEDE67EFD18",
      "resource": {
        "resourceType": "RelatedPerson",
        "id": "7D95D8C9-6E4C-4C1C-83A9-DDEDE67EFD18",
        "patient": {
          "reference": "Patient/844A0BF2-67C8-49BA-878B-F7720B79F77C"
        },
        "relationship": [
          {
            "coding": [
              {
                "system": "https://fhir.nhs.uk/STU3/ValueSet/PersonRelationshipType-1",
                "code": "01",
                "display": "Brother"
              }
            ]
          }
        ],
        "name": [
          {
            "text": "JONES Bob"
          }
        ]
      }
    },
    {
      "fullUrl": "https://int.api.service.nhs.uk/summary-care-record/FHIR/R4/Encounter/6CD21AA9-139B-4ACA-A0B9-F6AEE2B39EDD",
      "resource": {
        "resourceType": "Encounter",
        "id": "6CD21AA9-139B-4ACA-A0B9-F6AEE2B39EDD",
        "status": "finished",
        "class": {
          "system": "http://terminology.hl7.org/CodeSystem/v3-NullFlavor",
          "code": "UNK",
          "display": "Unknown"
        },
        "participant": [
          {
            "type": [
              {
                "coding": [
                  {
                    "system": "http://terminology.hl7.org/CodeSystem/v3-ParticipationType",
                    "code": "AUT",
                    "display": "author"
                  }
                ]
              }
            ],
            "period": {
              "start": "2020-12-18T01:00:00+01:00"
            },
            "individual": {
              "reference": "PractitionerRole/95F33E58-42F1-41A1-B66B-4C9677F6C7CA"
            }
          },
          {
            "type": [
              {
                "coding": [
                  {
                    "system": "http://terminology.hl7.org/CodeSystem/v3-ParticipationType",
                    "code": "INF",
                    "display": "informant"
                  }
                ]
              }
            ],
            "period": {
              "start": "2016-06-30T10:33:58+02:00"
            },
            "individual": {
              "reference": "RelatedPerson/7D95D8C9-6E4C-4C1C-83A9-DDEDE67EFD18"
            }
          }
        ]
      }
    },
    {
      "fullUrl": "https://int.api.service.nhs.uk/summary-care-record/FHIR/R4/Condition/6ECDAE6D-32AB-421C-AA8F-0B1ABA454C70",
      "resource": {
        "resourceType": "Condition",
        "id": "6ECDAE6D-32AB-421C-AA8F-0B1ABA454C70",
        "identifier": [
          {
            "value": "6ECDAE6D-32AB-421C-AA8F-0B1ABA454C70"
          }
        ],
        "verificationStatus": {
          "coding": [
            {
              "system": "http://hl7.org/fhir/ValueSet/condition-ver-status",
              "code": "entered-in-error"
            }
          ]
        },
        "category": [
          {
            "coding": [
              {
                "system": "http://snomed.info/sct",
                "code": "163001000000103",
                "display": "Diagnoses"
              }
            ]
          }
        ],
        "code": {
          "coding": [
            {
              "system": "http://snomed.info/sct",
              "code": "1240761000000102",
              "display": "Suspected COVID-19"
            }
          ]
        },
        "encounter": {
          "reference": "Encounter/5796646D-60CD-4502-A65A-FE69C87EACBB"
        },
        "onsetDateTime": "2020-05-06T12:48:19+02:00"
      }
    },
    {
      "fullUrl": "https://int.api.service.nhs.uk/summary-care-record/FHIR/R4/Practitioner/83103668-B058-44E0-8F66-811861DE0F5E",
      "resource": {
        "resourceType": "Practitioner",
        "id": "83103668-B058-44E0-8F66-811861DE0F5E",
        "name": [
          {
            "text": "Gregory House"
          }
        ]
      }
    },
    {
      "fullUrl": "https://int.api.service.nhs.uk/summary-care-record/FHIR/R4/PractitionerRole/C6E0D603-8E35-4354-844C-A0B61FC7689D",
      "resource": {
        "resourceType": "PractitionerRole",
        "id": "C6E0D603-8E35-4354-844C-A0B61FC7689D",
        "practitioner": {
          "reference": "Practitioner/83103668-B058-44E0-8F66-811861DE0F5E"
        },
        "organization": {
          "reference": "Organization/7147FA76-67EA-49CA-AE08-DBCB2A62C640"
        },
        "code": [
          {
            "coding": [
              {
                "system": "https://fhir.nhs.uk/CodeSystem/HL7v3-SDSJobRoleName",
                "code": "NR0080",
                "display": "Staff Grade"
              }
            ]
          }
        ]
      }
    },
    {
      "fullUrl": "https://int.api.service.nhs.uk/summary-care-record/FHIR/R4/Organization/7147FA76-67EA-49CA-AE08-DBCB2A62C640",
      "resource": {
        "resourceType": "Organization",
        "id": "7147FA76-67EA-49CA-AE08-DBCB2A62C640",
        "telecom": [
          {
            "system": "phone",
            "value": "0332865579"
          }
        ],
        "address": [
          {
            "line": [
              "ORG ADDRESS_4"
            ]
          }
        ]
      }
    },
    {
      "fullUrl": "https://int.api.service.nhs.uk/summary-care-record/FHIR/R4/Practitioner/3B99E9C7-B3D9-47A5-BA03-9D2457B4D4A2",
      "resource": {
        "resourceType": "Practitioner",
        "id": "3B99E9C7-B3D9-47A5-BA03-9D2457B4D4A2",
        "name": [
          {
            "text": "Thomas Moore"
          }
        ]
      }
    },
    {
      "fullUrl": "https://int.api.service.nhs.uk/summary-care-record/FHIR/R4/PractitionerRole/D2D5DCD4-DAD8-4B95-B16B-3D7FFE03CE91",
      "resource": {
        "resourceType": "PractitionerRole",
        "id": "D2D5DCD4-DAD8-4B95-B16B-3D7FFE03CE91",
        "practitioner": {
          "reference": "Practitioner/3B99E9C7-B3D9-47A5-BA03-9D2457B4D4A2"
        },
        "organization": {
          "reference": "Organization/83AB4D6E-DA47-464A-88BF-F18655012EB0"
        },
        "code": [
          {
            "coding": [
              {
                "system": "https://fhir.nhs.uk/CodeSystem/HL7v3-SDSJobRoleName",
                "code": "NR0100",
                "display": "Clinical Assistant"
              }
            ]
          }
        ]
      }
    },
    {
      "fullUrl": "https://int.api.service.nhs.uk/summary-care-record/FHIR/R4/Organization/83AB4D6E-DA47-464A-88BF-F18655012EB0",
      "resource": {
        "resourceType": "Organization",
        "id": "83AB4D6E-DA47-464A-88BF-F18655012EB0",
        "telecom": [
          {
            "system": "phone",
            "value": "573459834"
          }
        ],
        "address": [
          {
            "line": [
              "ORG ADDRESS_4"
            ]
          }
        ]
      }
    },
    {
      "fullUrl": "https://int.api.service.nhs.uk/summary-care-record/FHIR/R4/Encounter/5796646D-60CD-4502-A65A-FE69C87EACBB",
      "resource": {
        "resourceType": "Encounter",
        "id": "5796646D-60CD-4502-A65A-FE69C87EACBB",
        "status": "finished",
        "class": {
          "system": "http://terminology.hl7.org/CodeSystem/v3-NullFlavor",
          "code": "UNK",
          "display": "Unknown"
        },
        "participant": [
          {
            "type": [
              {
                "coding": [
                  {
                    "system": "http://terminology.hl7.org/CodeSystem/v3-ParticipationType",
                    "code": "AUT",
                    "display": "author"
                  }
                ]
              }
            ],
            "period": {
              "start": "2020-12-18T01:00:00+01:00"
            },
            "individual": {
              "reference": "PractitionerRole/C6E0D603-8E35-4354-844C-A0B61FC7689D"
            }
          },
          {
            "type": [
              {
                "coding": [
                  {
                    "system": "http://terminology.hl7.org/CodeSystem/v3-ParticipationType",
                    "code": "INF",
                    "display": "informant"
                  }
                ]
              }
            ],
            "period": {
              "start": "2016-06-30T10:33:58+02:00"
            },
            "individual": {
              "reference": "PractitionerRole/D2D5DCD4-DAD8-4B95-B16B-3D7FFE03CE91"
            }
          }
        ]
      }
    },
    {
      "fullUrl": "https://int.api.service.nhs.uk/summary-care-record/FHIR/R4/PractitionerRole/B2D07380-A3DC-400B-895B-C86859E58051",
      "resource": {
        "resourceType": "PractitionerRole",
        "id": "B2D07380-A3DC-400B-895B-C86859E58051",
        "identifier": [
          {
            "system": "http://fhir.nhs.net/Id/sds-role-profile-id",
            "value": "89823498234"
          }
        ],
        "practitioner": {
          "reference": "Practitioner/EF3A1B1C-1CBC-4B03-99C7-DFE7900C2175"
        }
      }
    },
    {
      "fullUrl": "https://int.api.service.nhs.uk/summary-care-record/FHIR/R4/Practitioner/EF3A1B1C-1CBC-4B03-99C7-DFE7900C2175",
      "resource": {
        "resourceType": "Practitioner",
        "id": "EF3A1B1C-1CBC-4B03-99C7-DFE7900C2175",
        "identifier": [
          {
            "system": "https://fhir.nhs.uk/Id/sds-user-id",
            "value": "9699575667"
          }
        ],
        "name": [
          {
            "text": "Maria Smith"
          }
        ]
      }
    },
    {
      "fullUrl": "https://int.api.service.nhs.uk/summary-care-record/FHIR/R4/Encounter/23827122-E107-4638-A7E3-21B15831F2B0",
      "resource": {
        "resourceType": "Encounter",
        "id": "23827122-E107-4638-A7E3-21B15831F2B0",
        "status": "finished",
        "class": {
          "system": "http://terminology.hl7.org/CodeSystem/v3-NullFlavor",
          "code": "UNK",
          "display": "Unknown"
        },
        "participant": [
          {
            "extension": [
              {
                "url": "https://fhir.nhs.uk/StructureDefinition/Extension-SCR-ModeCode",
                "valueCodeableConcept": {
                  "coding": [
                    {
                      "system": "http://terminology.hl7.org/CodeSystem/v3-ParticipationMode",
                      "code": "PHYSICAL",
                      "display": "physical presence"
                    }
                  ]
                }
              }
            ],
            "type": [
              {
                "coding": [
                  {
                    "system": "http://terminology.hl7.org/CodeSystem/v3-ParticipationType",
                    "code": "PRF",
                    "display": "performer"
                  }
                ]
              }
            ],
            "period": {
              "start": "2016-06-30T10:33:58+02:00"
            },
            "individual": {
              "reference": "PractitionerRole/B2D07380-A3DC-400B-895B-C86859E58051"
            }
          }
        ]
      }
    },
    {
      "fullUrl": "https://int.api.service.nhs.uk/summary-care-record/FHIR/R4/Observation/F17999D2-FFE7-4CA4-8CE8-52CB45FF6F49",
      "resource": {
        "resourceType": "Observation",
        "id": "F17999D2-FFE7-4CA4-8CE8-52CB45FF6F49",
        "meta": {
          "profile": [
            "https://fhir.hl7.org.uk/StructureDefinition/UKCore-Observation"
          ]
        },
        "identifier": [
          {
            "value": "F17999D2-FFE7-4CA4-8CE8-52CB45FF6F49"
          }
        ],
        "status": "final",
        "category": [
          {
            "coding": [
              {
                "system": "http://snomed.info/sct",
                "code": "163141000000104",
                "display": "Investigation Results"
              }
            ]
          }
        ],
        "code": {
          "coding": [
            {
              "system": "http://snomed.info/sct",
              "code": "163131000000108",
              "display": "SARS-CoV-2 (severe acute respiratory syndrome coronavirus 2) RNA (ribonucleic acid) detection result positive"
            }
          ]
        },
        "encounter": {
          "reference": "Encounter/23827122-E107-4638-A7E3-21B15831F2B0"
        },
        "effectivePeriod": {
          "start": "2020-05-06T12:48:19+02:00"
        }
      }
    },
    {
      "fullUrl": "https://int.api.service.nhs.uk/summary-care-record/FHIR/R4/Device/D195A393-DCF2-41DE-985D-21979FC478A6",
      "resource": {
        "resourceType": "Device",
        "id": "D195A393-DCF2-41DE-985D-21979FC478A6",
        "identifier": [
          {
            "system": "https://fhir.nhs.uk/Id/SDSDevice",
            "value": "930484003023"
          },
          {
            "value": "930484003023"
          }
        ],
        "owner": {
          "reference": "Organization/8BE6C922-8626-4309-96D8-B0F201F7F808"
        }
      }
    },
    {
      "fullUrl": "https://int.api.service.nhs.uk/summary-care-record/FHIR/R4/Organization/8BE6C922-8626-4309-96D8-B0F201F7F808",
      "resource": {
        "resourceType": "Organization",
        "id": "8BE6C922-8626-4309-96D8-B0F201F7F808",
        "identifier": [
          {
            "system": "https://fhir.nhs.uk/Id/ods-organization-code",
            "value": "7635043534"
          }
        ]
      }
    },
    {
      "fullUrl": "https://int.api.service.nhs.uk/summary-care-record/FHIR/R4/PractitionerRole/48BEC9CA-BDB0-49DA-B87F-2A4371F8FA6B",
      "resource": {
        "resourceType": "PractitionerRole",
        "id": "48BEC9CA-BDB0-49DA-B87F-2A4371F8FA6B",
        "organization": {
          "reference": "Organization/8BE6C922-8626-4309-96D8-B0F201F7F808"
        }
      }
    },
    {
      "fullUrl": "https://int.api.service.nhs.uk/summary-care-record/FHIR/R4/Encounter/C8047C07-4D6D-45D1-B723-A477504C61BC",
      "resource": {
        "resourceType": "Encounter",
        "id": "C8047C07-4D6D-45D1-B723-A477504C61BC",
        "status": "finished",
        "class": {
          "system": "http://terminology.hl7.org/CodeSystem/v3-NullFlavor",
          "code": "UNK",
          "display": "Unknown"
        },
        "participant": [
          {
            "type": [
              {
                "coding": [
                  {
                    "system": "http://terminology.hl7.org/CodeSystem/v3-ParticipationType",
                    "code": "AUT",
                    "display": "author"
                  }
                ]
              }
            ],
            "period": {
              "start": "2016-06-30T10:33:58+02:00"
            },
            "individual": {
              "reference": "PractitionerRole/48BEC9CA-BDB0-49DA-B87F-2A4371F8FA6B"
            }
          }
        ]
      }
    },
    {
      "fullUrl": "https://int.api.service.nhs.uk/summary-care-record/FHIR/R4/Observation/EE608FAA-2433-4BAD-A0D5-4A10E45AB2B0",
      "resource": {
        "resourceType": "Observation",
        "id": "EE608FAA-2433-4BAD-A0D5-4A10E45AB2B0",
        "meta": {
          "profile": [
            "https://fhir.hl7.org.uk/StructureDefinition/UKCore-Observation"
          ]
        },
        "identifier": [
          {
            "value": "EE608FAA-2433-4BAD-A0D5-4A10E45AB2B0"
          }
        ],
        "status": "final",
        "category": [
          {
            "coding": [
              {
                "system": "http://snomed.info/sct",
                "code": "163141000000104",
                "display": "Investigation Results"
              }
            ]
          }
        ],
        "code": {
          "coding": [
            {
              "system": "http://snomed.info/sct",
              "code": "163131000000108",
              "display": "SARS-CoV-2 (severe acute respiratory syndrome coronavirus 2) RNA (ribonucleic acid) detection result positive"
            }
          ]
        },
        "encounter": {
          "reference": "Encounter/C8047C07-4D6D-45D1-B723-A477504C61BC"
        },
        "effectivePeriod": {
          "start": "2020-05-06T12:48:19+02:00"
        }
      }
    },
    {
      "fullUrl": "https://int.api.service.nhs.uk/summary-care-record/FHIR/R4/Device/6821ACC4-C18E-43D0-A5C2-27F090FA2E94",
      "resource": {
        "resourceType": "Device",
        "id": "6821ACC4-C18E-43D0-A5C2-27F090FA2E94",
        "identifier": [
          {
            "value": "7867868687687"
          },
          {
            "value": "7867868687687"
          }
        ],
        "deviceName": [
          {
            "name": "Some device name",
            "type": "other"
          },
          {
            "name": "Mfc model name",
            "type": "manufacturer-name"
          }
        ],
        "type": {
          "coding": [
            {
              "code": "01",
              "display": "Some device"
            }
          ]
        },
        "owner": {
          "reference": "Organization/DA282353-8BEF-442C-A8A2-BE6EB9F0C57F"
        },
        "note": [
          {
            "text": "Device description"
          }
        ]
      }
    },
    {
      "fullUrl": "https://int.api.service.nhs.uk/summary-care-record/FHIR/R4/Organization/DA282353-8BEF-442C-A8A2-BE6EB9F0C57F",
      "resource": {
        "resourceType": "Organization",
        "id": "DA282353-8BEF-442C-A8A2-BE6EB9F0C57F",
        "type": [
          {
            "coding": [
              {
                "code": "214"
              }
            ]
          }
        ],
        "name": "Device owner org",
        "telecom": [
          {
            "system": "phone",
            "value": "fax:01392251689"
          }
        ],
        "address": [
          {
            "line": [
              "ADDRESS LINE 1"
            ]
          }
        ]
      }
    },
    {
      "fullUrl": "https://int.api.service.nhs.uk/summary-care-record/FHIR/R4/PractitionerRole/656AABDF-1E43-47E3-B94B-5FB4898D40F4",
      "resource": {
        "resourceType": "PractitionerRole",
        "id": "656AABDF-1E43-47E3-B94B-5FB4898D40F4",
        "organization": {
          "reference": "Organization/DA282353-8BEF-442C-A8A2-BE6EB9F0C57F"
        }
      }
    },
    {
      "fullUrl": "https://int.api.service.nhs.uk/summary-care-record/FHIR/R4/Encounter/74000A32-7EB5-4CDB-9BA6-ABDFC1655335",
      "resource": {
        "resourceType": "Encounter",
        "id": "74000A32-7EB5-4CDB-9BA6-ABDFC1655335",
        "status": "finished",
        "class": {
          "system": "http://terminology.hl7.org/CodeSystem/v3-NullFlavor",
          "code": "UNK",
          "display": "Unknown"
        },
        "participant": [
          {
            "type": [
              {
                "coding": [
                  {
                    "system": "http://terminology.hl7.org/CodeSystem/v3-ParticipationType",
                    "code": "AUT",
                    "display": "author"
                  }
                ]
              }
            ],
            "period": {
              "start": "2016-06-30T10:33:58+02:00"
            },
            "individual": {
              "reference": "PractitionerRole/656AABDF-1E43-47E3-B94B-5FB4898D40F4"
            }
          }
        ]
      }
    },
    {
      "fullUrl": "https://int.api.service.nhs.uk/summary-care-record/FHIR/R4/Observation/0F582D97-8F89-11CA-8B2D-B741F13EFC47",
      "resource": {
        "resourceType": "Observation",
        "id": "0F582D97-8F89-11CA-8B2D-B741F13EFC47",
        "meta": {
          "profile": [
            "https://fhir.hl7.org.uk/StructureDefinition/UKCore-Observation"
          ]
        },
        "identifier": [
          {
            "value": "0F582D97-8F89-11CA-8B2D-B741F13EFC47"
          }
        ],
        "status": "final",
        "category": [
          {
            "coding": [
              {
                "system": "http://snomed.info/sct",
                "code": "163141000000104",
                "display": "Investigation Results"
              }
            ]
          }
        ],
        "code": {
          "coding": [
            {
              "system": "http://snomed.info/sct",
              "code": "1240581000000104",
              "display": "SARS-CoV-2 (severe acute respiratory syndrome coronavirus 2) RNA (ribonucleic acid) detection result positive"
            }
          ]
        },
        "encounter": {
          "reference": "Encounter/74000A32-7EB5-4CDB-9BA6-ABDFC1655335"
        },
        "effectivePeriod": {
          "start": "2020-05-06T12:48:19+02:00"
        }
      }
    },
    {
      "fullUrl": "https://int.api.service.nhs.uk/summary-care-record/FHIR/R4/Observation/3CDB62E6-EFEA-4036-9709-52AE7ED7D930",
      "resource": {
        "resourceType": "Observation",
        "id": "3CDB62E6-EFEA-4036-9709-52AE7ED7D930",
        "meta": {
          "profile": [
            "https://fhir.hl7.org.uk/StructureDefinition/UKCore-Observation"
          ]
        },
        "identifier": [
          {
            "value": "3CDB62E6-EFEA-4036-9709-52AE7ED7D930"
          }
        ],
        "status": "final",
        "category": [
          {
            "coding": [
              {
                "system": "http://snomed.info/sct",
                "code": "163141000000104",
                "display": "Investigation Results"
              }
            ]
          }
        ],
        "code": {
          "coding": [
            {
              "system": "http://snomed.info/sct",
              "code": "1322781000000102",
              "display": "Severe acute respiratory syndrome coronavirus 2 antigen detection result positive (finding)"
            }
          ]
        },
        "effectivePeriod": {
          "start": "2020-08-05T00:00:00+02:00"
        }
      }
    },
    {
      "fullUrl": "https://int.api.service.nhs.uk/summary-care-record/FHIR/R4/ImmunizationRecommendation/19ABC6D1-8AF5-11EA-9FCE-AFDCAECF9DFB",
      "resource": {
        "resourceType": "ImmunizationRecommendation",
        "id": "19ABC6D1-8AF5-11EA-9FCE-AFDCAECF9DFB",
        "identifier": [
          {
            "value": "19ABC6D1-8AF5-11EA-9FCE-AFDCAECF9DFB"
          }
        ],
        "patient": {
          "reference": "Patient/844A0BF2-67C8-49BA-878B-F7720B79F77C"
        },
        "date": "2020-08-05T00:00:00+02:00",
        "recommendation": [
          {
            "contraindicatedVaccineCode": [
              {
                "coding": [
                  {
                    "system": "http://snomed.info/sct",
                    "code": "1240661000000107",
                    "display": "Severe acute respiratory syndrome coronavirus 2 vaccination contraindicated (situation)"
                  }
                ]
              }
            ]
          }
        ]
      }
    },
    {
      "fullUrl": "https://int.api.service.nhs.uk/summary-care-record/FHIR/R4/Immunization/19ABC6D1-8AF5-11EA-9FCE-AFDCAECF9DFB",
      "resource": {
        "resourceType": "Immunization",
        "id": "19ABC6D1-8AF5-11EA-9FCE-AFDCAECF9DFB",
        "meta": {
          "profile": [
            "https://fhir.hl7.org.uk/StructureDefinition/UKCore-Immunization"
          ]
        },
        "extension": [
          {
            "url": "https://fhir.hl7.org.uk/StructureDefinition/Extension-UKCore-VaccinationProcedure",
            "valueCodeableConcept": {
              "coding": [
                {
                  "system": "http://snomed.info/sct",
                  "code": "1240681000000103",
                  "display": "Severe acute respiratory syndrome coronavirus 2 vaccination not done (situation)"
                }
              ]
            }
          }
        ],
        "identifier": [
          {
            "value": "19ABC6D1-8AF5-11EA-9FCE-AFDCAECF9DFB"
          }
        ],
        "status": "not-done",
        "vaccineCode": {
          "coding": [
            {
              "system": "http://terminology.hl7.org/CodeSystem/v3-NullFlavor",
              "code": "UNK",
              "display": "Unknown"
            }
          ]
        },
        "patient": {
          "reference": "Patient/844A0BF2-67C8-49BA-878B-F7720B79F77C"
        },
        "occurrenceDateTime": "2020-08-05T00:00:00+02:00"
      }
    },
    {
      "fullUrl": "https://int.api.service.nhs.uk/summary-care-record/FHIR/R4/Observation/10CE2F30-8AF5-11EA-9FCE-AFDCAECF9DFB",
      "resource": {
        "resourceType": "Observation",
        "id": "10CE2F30-8AF5-11EA-9FCE-AFDCAECF9DFB",
        "meta": {
          "profile": [
            "https://fhir.hl7.org.uk/StructureDefinition/UKCore-Observation"
          ]
        },
        "identifier": [
          {
            "value": "10CE2F30-8AF5-11EA-9FCE-AFDCAECF9DFB"
          }
        ],
        "status": "final",
        "category": [
          {
            "coding": [
              {
                "system": "http://snomed.info/sct",
                "code": "163231000000100",
                "display": "Risks to Patient"
              }
            ]
          }
        ],
        "code": {
          "coding": [
            {
              "system": "http://snomed.info/sct",
              "code": "1240441000000108",
              "display": "Close exposure to severe acute respiratory syndrome coronavirus 2 infection (event)"
            }
          ]
        },
        "effectivePeriod": {
          "start": "2020-08-05T00:00:00+02:00"
        }
      }
    },
    {
      "fullUrl": "https://int.api.service.nhs.uk/summary-care-record/FHIR/R4/Encounter/0F582D91-8F89-11EA-8B2D-B741F13EFC47",
      "resource": {
        "resourceType": "Encounter",
        "id": "0F582D91-8F89-11EA-8B2D-B741F13EFC47",
        "meta": {
          "profile": [
            "https://fhir.hl7.org.uk/StructureDefinition/UKCore-Encounter"
          ]
        },
        "identifier": [
          {
            "value": "0F582D91-8F89-11EA-8B2D-B741F13EFC47"
          }
        ],
        "status": "finished",
        "class": {
          "system": "http://terminology.hl7.org/CodeSystem/v3-ActCode",
          "code": "GENRL",
          "display": "General"
        },
        "type": [
          {
            "coding": [
              {
                "system": "http://snomed.info/sct",
                "code": "1240631000000102",
                "display": "Did not attend SARS-CoV-2 (severe acute respiratory syndrome coronavirus 2) vaccination"
              }
            ]
          }
        ],
        "period": {
          "start": "2020-08-05T00:00:00+02:00"
        }
      }
    },
    {
      "fullUrl": "https://int.api.service.nhs.uk/summary-care-record/FHIR/R4/Procedure/0F5A9E75-8F89-11EA-8B2D-B741F13EFC47",
      "resource": {
        "resourceType": "Procedure",
        "id": "0F5A9E75-8F89-11EA-8B2D-B741F13EFC47",
        "meta": {
          "profile": [
            "https://fhir.hl7.org.uk/StructureDefinition/UKCore-Procedure"
          ]
        },
        "identifier": [
          {
            "value": "0F5A9E75-8F89-11EA-8B2D-B741F13EFC47"
          }
        ],
        "status": "completed",
        "category": {
          "coding": [
            {
              "system": "http://snomed.info/sct",
              "code": "163081000000108",
              "display": "Investigations"
            }
          ]
        },
        "code": {
          "coding": [
            {
              "system": "http://snomed.info/sct",
              "code": "1240461000000109",
              "display": "Measurement of severe acute respiratory syndrome coronavirus 2 antibody (procedure)"
            }
          ]
        },
        "performedPeriod": {
          "start": "2020-08-05T00:00:00+02:00"
        }
      }
    },
    {
      "fullUrl": "https://int.api.service.nhs.uk/summary-care-record/FHIR/R4/Procedure/0F5A9E72-8F89-11EA-8B2D-B741F13EFC47",
      "resource": {
        "resourceType": "Procedure",
        "id": "0F5A9E72-8F89-11EA-8B2D-B741F13EFC47",
        "meta": {
          "profile": [
            "https://fhir.hl7.org.uk/StructureDefinition/UKCore-Procedure"
          ]
        },
        "identifier": [
          {
            "value": "0F5A9E72-8F89-11EA-8B2D-B741F13EFC47"
          }
        ],
        "status": "completed",
        "category": {
          "coding": [
            {
              "system": "http://snomed.info/sct",
              "code": "162951000000105",
              "display": "Care Events"
            }
          ]
        },
        "code": {
          "coding": [
            {
              "system": "http://snomed.info/sct",
              "code": "1240491000000103",
              "display": "Severe acute respiratory syndrome coronavirus 2 vaccination (procedure)"
            }
          ]
        },
        "performedPeriod": {
          "start": "2020-08-05T00:00:00+02:00"
        }
      }
    },
    {
      "fullUrl": "https://int.api.service.nhs.uk/summary-care-record/FHIR/R4/Observation/0F5A9E73-8F89-11EA-8B2D-B741F13EFC47",
      "resource": {
        "resourceType": "Observation",
        "id": "0F5A9E73-8F89-11EA-8B2D-B741F13EFC47",
        "meta": {
          "profile": [
            "https://fhir.hl7.org.uk/StructureDefinition/UKCore-Observation"
          ]
        },
        "identifier": [
          {
            "value": "0F5A9E73-8F89-11EA-8B2D-B741F13EFC47"
          }
        ],
        "status": "final",
        "category": [
          {
            "coding": [
              {
                "system": "http://snomed.info/sct",
                "code": "162961000000108",
                "display": "Personal Preferences"
              }
            ]
          }
        ],
        "code": {
          "coding": [
            {
              "system": "http://snomed.info/sct",
              "code": "1240651000000109",
              "display": "SARS-CoV-2 (severe acute respiratory syndrome coronavirus 2) vaccination declined"
            }
          ]
        },
        "effectivePeriod": {
          "start": "2020-08-05T00:00:00+02:00"
        }
      }
    },
    {
      "fullUrl": "https://int.api.service.nhs.uk/summary-care-record/FHIR/R4/Communication/0F582D83-8F89-11EA-8B2D-B741F13EFC47",
      "resource": {
        "resourceType": "Communication",
        "id": "0F582D83-8F89-11EA-8B2D-B741F13EFC47",
        "meta": {
          "profile": [
            "https://fhir.hl7.org.uk/StructureDefinition/UKCore-Encounter"
          ]
        },
        "identifier": [
          {
            "value": "0F582D83-8F89-11EA-8B2D-B741F13EFC47"
          }
        ],
        "status": "completed",
        "category": [
          {
            "coding": [
              {
                "system": "http://snomed.info/sct",
                "code": "163101000000102",
                "display": "Provision of Advice and Information to Patients and Carers"
              }
            ]
          }
        ],
        "topic": {
          "coding": [
            {
              "system": "http://snomed.info/sct",
              "code": "1240711000000104",
              "display": "Educated about severe acute respiratory syndrome coronavirus 2 infection (situation)"
            }
          ]
        },
        "sent": "2020-08-05T00:00:00+02:00"
      }
    },
    {
      "fullUrl": "https://int.api.service.nhs.uk/summary-care-record/FHIR/R4/Communication/0F582D83-8F89-11EA-8B2D-B741F13EFC47",
      "resource": {
        "resourceType": "Communication",
        "id": "0F582D83-8F89-11EA-8B2D-B741F13EFC47",
        "meta": {
          "profile": [
            "https://fhir.hl7.org.uk/StructureDefinition/UKCore-Encounter"
          ]
        },
        "identifier": [
          {
            "value": "0F582D83-8F89-11EA-8B2D-B741F13EFC47"
          }
        ],
        "status": "completed",
        "category": [
          {
            "coding": [
              {
                "system": "http://snomed.info/sct",
                "code": "163181000000107",
                "display": "Patient/carer correspondence"
              }
            ]
          }
        ],
        "topic": {
          "coding": [
            {
              "system": "http://snomed.info/sct",
              "code": "1240781000000106",
              "display": "Severe acute respiratory syndrome coronavirus 2 vaccination invitation short message service text message sent (situation)"
            }
          ]
        }
      }
    },
    {
      "fullUrl": "https://int.api.service.nhs.uk/summary-care-record/FHIR/R4/Patient/844A0BF2-67C8-49BA-878B-F7720B79F77C",
      "resource": {
        "resourceType": "Patient",
        "id": "844A0BF2-67C8-49BA-878B-F7720B79F77C",
        "identifier": [
          {
            "system": "https://fhir.nhs.uk/Id/nhs-number",
            "value": "9995000180"
          }
        ]
      }
    }
  ]
}
